f (kHz), i (mA)
0.18, 0.4
0.50, 1.4
0.80, 2.5
1.10, 3.6
1.40, 4.8
1.69, 6.2
2.0 7.8
2.27, 8.4
2.60, 11.7
2.89, 14.0
3.21, 17.4
3.49, 21.0
3.81, 25.7
4.12, 30.6
4.45, 34.4
4.71, 35.5
5.00, 34.4
5.32, 31.9
5.61, 24.8
5.90, 22.0
6.21, 19.8
6.50, 17.9
6.79, 17.2
7.10, 16.2
7.41, 14.8
7.71, 13.7
8.02, 12.7
8.31, 11.9
8.60, 11.1
8.90, 10.4
9.22, 9.8
9.52, 9.3
9.79, 8.9
10.1, 8.4
10.41, 7.9
10.7, 7.6
11.0, 7.2
11.5, 6.7
12.00, 6.3
12.53, 5.8
13.04, 5.6
14.00, 5.0
15.00, 4.2
16.02, 4.0
17.05, 3.6
18.05, 3.2
19.06, 2.9
20.00, 2.6